STUDYID,USUBJID,AESEQ,AETERM,AESTDTC,AEENDTC,AESEV,AESER
CARDIOX-301,SUBJ-001,1,Headache,2025-01-12,2025-01-13,MILD,N
CARDIOX-301,SUBJ-002,1,Nausea,2025-01-10,2025-01-11,MODERATE,N
CARDIOX-301,SUBJ-002,2,ALT increased,2025-02-16,,SEVERE,Y
CARDIOX-301,SUBJ-003,1,Dizziness,INVALID,2025-02-01,MILD,N
CARDIOX-301,SUBJ-004,1,Fatigue,2025-02-05,2025-02-03,MILD,N
CARDIOX-301,SUBJ-005,1,Chest pain,2025-01-25,,SEVERE,Y
CARDIOX-301,SUBJ-008,1,Rash,2025-02-01,2025-02-03,MILD,N
CARDIOX-301,SUBJ-006,1,,2025-01-23,2025-01-24,,N